File: ExampleDataFiles/Sample_Renishaw_Raman_Spec_Graphene.txt
3201.13	54.2774
3198.92	79.1417
3196.71	61.0323
3194.5	81.3499
3192.29	63.2515
3190.07	70.0056
3187.86	76.7553
3185.64	67.7032
3183.43	87.9855
3181.21	83.4462
3178.99	63.1279
3176.77	74.3765
3174.55	58.5806
3172.33	67.5709
3170.11	63.0456
3167.89	83.2831
3165.67	65.2546
3163.45	65.2333
3161.22	60.7147
3159	78.6785
3156.78	53.9334
3154.55	60.6552
3152.32	65.127
3150.1	71.8408
3147.87	67.3287
3145.64	56.0889
3143.41	51.585
3141.18	67.2628
3138.95	51.5513
3136.72	62.7376
3134.49	60.4772
3132.25	44.7833
3130.02	64.9145
3127.79	58.1802
3125.55	67.1091
3123.32	55.9059
3121.08	40.2391
3118.84	64.8085
3116.6	82.6596
3114.37	66.9994
3112.13	64.7449
3109.89	69.1874
3107.65	66.9336
3105.4	69.1421
3103.16	89.1865
3100.92	66.8679
3098.68	55.705
3096.43	89.0989
3094.19	69.029
3091.94	60.1024
3089.69	57.8574
3087.45	71.1858
3085.2	57.8195
3082.95	62.2467
3080.7	66.6711
3078.45	53.3194
3076.2	62.1856
3073.95	64.3854
3071.69	68.8032
3069.44	68.7806
3067.19	88.7201
3064.93	64.301
3062.67	50.9806
3060.42	55.3955
3058.16	77.5283
3055.9	73.0741
3053.64	64.1955
3051.39	66.3874
3049.13	68.5778
3046.86	72.9782
3044.6	70.7435
3042.34	50.8302
3040.08	81.7435
3037.81	79.5081
3035.55	57.4036
3033.28	61.799
3031.02	59.5723
3028.75	59.5527
3026.48	61.7381
3024.22	66.1262
3021.95	63.901
3019.68	57.2717
3017.41	83.6773
3015.14	72.6432
3012.86	70.4187
3010.59	79.195
3008.32	72.5716
3006.04	61.5556
3003.77	63.7331
3001.49	57.1212
2999.22	70.2799
2996.94	103.19
2994.66	74.6232
2992.38	72.4046
2990.1	74.5741
2987.82	72.3569
2985.54	83.2926
2983.26	74.5004
2980.98	78.8568
2978.7	94.1591
2976.41	74.4268
2974.13	76.5906
2971.84	67.815
2969.55	83.1007
2967.27	69.9565
2964.98	67.748
2962.69	85.2032
2960.4	72.0713
2958.11	76.414
2955.82	74.2063
2953.53	80.7272
2951.24	63.2518
2948.95	74.1329
2946.65	76.288
2944.36	52.2945
2942.06	74.0595
2939.77	71.8575
2937.47	71.8338
2935.17	69.634
2932.87	69.611
2930.57	67.4134
2928.27	78.2607
2925.97	80.408
2923.67	49.9668
2921.37	76.0114
2919.07	117.236
2916.76	78.1315
2914.46	91.1233
2912.15	71.5732
2909.85	67.2132
2907.54	84.5305
2905.23	67.1687
2902.93	77.9766
2900.62	58.4631
2898.31	93.0771
2896	93.0463
2893.69	73.5471
2891.37	77.8477
2889.06	73.4985
2886.75	73.4741
2884.43	41.0455
2882.12	69.1064
2879.8	86.3543
2877.49	92.8002
2875.17	69.0377
2872.85	88.4253
2870.53	84.084
2868.21	66.8138
2865.89	75.41
2863.57	79.6927
2861.25	64.5943
2858.92	73.1826
2856.6	98.9789
2854.28	79.5871
2851.95	77.4104
2849.63	83.8334
2847.3	88.1034
2844.97	85.926
2842.64	81.6026
2840.31	100.896
2837.99	75.1104
2835.65	79.3761
2833.32	87.9281
2830.99	77.1795
2828.66	79.297
2826.33	72.8434
2823.99	100.662
2821.66	70.654
2819.32	107.016
2816.98	96.2823
2814.65	91.9725
2812.31	106.909
2809.97	98.3238
2807.63	102.565
2805.29	104.667
2802.95	113.173
2800.6	111.001
2798.26	119.5
2795.92	110.927
2793.57	121.553
2791.23	127.908
2788.88	98.0299
2786.54	140.605
2784.19	144.817
2781.84	127.738
2779.49	151.106
2777.14	127.652
2774.79	161.639
2772.44	159.459
2770.09	176.41
2767.73	167.852
2765.38	193.284
2763.02	182.603
2760.67	208.013
2758.31	231.285
2755.96	254.541
2753.6	252.335
2751.24	307.365
2748.88	353.881
2746.52	400.367
2744.16	472.233
2741.8	524.999
2739.43	584.078
2737.07	674.851
2734.71	649.248
2732.34	735.709
2729.98	877.062
2727.61	887.332
2725.24	933.5
2722.88	1026.08
2720.51	1112.28
2718.14	1177.31
2715.77	1282.38
2713.39	1252.43
2711.02	1300.49
2708.65	1260.02
2706.28	1289.09
2703.9	1288.66
2701.53	1307.17
2699.15	1262.55
2696.77	1234.78
2694.4	1156.56
2692.02	1149.87
2689.64	1168.4
2687.26	1134.39
2684.88	1071.01
2682.5	1087.45
2680.11	1005.24
2677.73	977.629
2675.35	870.344
2672.96	823.93
2670.58	781.738
2668.19	689.291
2665.8	657.644
2663.42	577.863
2661.03	583.948
2658.64	539.814
2656.25	485.252
2653.86	447.453
2651.46	436.852
2649.07	382.379
2646.68	371.807
2644.28	327.832
2641.89	302.673
2639.49	285.878
2637.1	262.836
2634.7	254.407
2632.3	248.068
2629.9	220.894
2627.5	191.655
2625.1	206.168
2622.7	191.526
2620.3	197.705
2617.89	164.352
2615.49	162.217
2613.08	149.689
2610.68	155.873
2608.27	137.123
2605.87	162
2603.46	122.497
2601.05	116.229
2598.64	132.789
2596.23	124.448
2593.82	116.112
2591.41	109.855
2588.99	60.0891
2586.58	128.423
2584.16	147.016
2581.75	101.427
2579.33	128.294
2576.92	99.2906
2574.5	101.325
2572.08	86.8208
2569.66	97.124
2567.24	92.9597
2564.82	76.4078
2562.4	99.0903
2559.97	96.9932
2557.55	51.5748
2555.13	90.741
2552.7	68.0329
2550.28	88.619
2547.85	74.1677
2545.42	74.1427
2542.99	84.4118
2540.56	88.4996
2538.13	94.6421
2535.7	78.1562
2533.27	80.1859
2530.84	80.1589
2528.41	108.897
2525.97	88.3207
2523.54	90.3442
2521.1	82.1034
2518.66	77.9719
2516.23	86.1504
2513.79	75.8688
2511.35	102.491
2508.91	92.2106
2506.47	94.2279
2504.03	106.482
2501.59	100.305
2499.14	85.947
2496.7	90.0093
2494.25	92.0239
2491.81	87.9042
2489.36	112.398
2486.91	77.6303
2484.47	79.6463
2482.02	91.8685
2479.57	106.123
2477.12	112.208
2474.67	108.091
2472.21	112.132
2469.76	128.399
2467.31	120.206
2464.85	132.385
2462.4	136.412
2459.94	142.472
2457.48	156.666
2455.02	148.477
2452.56	152.494
2450.11	144.312
2447.64	148.327
2445.18	152.339
2442.72	140.104
2440.26	131.937
2437.79	121.747
2435.33	111.564
2432.86	117.609
2430.4	66.8929
2427.93	77.0021
2425.46	85.0787
2422.99	54.6749
2420.52	85.021
2418.05	87.0158
2415.58	66.7569
2413.11	82.9123
2410.64	72.7763
2408.16	62.6472
2405.69	62.626
2403.21	98.9558
2400.73	62.5834
2398.26	68.6166
2395.78	68.5933
2393.3	58.4862
2390.82	50.402
2388.34	14.1078
2385.86	68.5002
2383.38	70.4909
2380.89	122.814
2378.41	50.3164
2375.92	28.1676
2373.44	106.598
2370.95	54.2863
2368.46	86.4266
2365.98	54.2494
2363.49	54.231
2361	38.1496
2358.51	62.2228
2356.01	54.1756
2353.52	56.163
2351.03	34.0874
2348.53	42.0936
2346.04	54.1019
2343.54	84.1299
2341.05	30.0362
2338.55	70.0605
2336.05	58.0304
2333.55	44.008
2331.05	21.9965
2328.55	55.9721
2326.05	57.9513
2323.54	45.9457
2321.04	45.9301
2318.54	57.8921
2316.03	65.8547
2313.53	55.8577
2311.02	63.8156
2308.51	55.8196
2306	63.772
2303.49	55.7815
2300.98	57.754
2298.47	61.716
2295.96	41.7933
2293.45	47.7475
2290.93	33.8096
2288.42	55.6674
2285.9	59.6232
2283.38	57.6161
2280.87	45.6799
2278.35	39.7081
2275.83	65.496
2273.31	53.5693
2270.79	65.4512
2268.27	51.55
2265.75	65.4065
2263.22	57.4588
2260.7	61.4005
2258.17	57.4195
2255.65	63.3378
2253.12	43.5298
2250.59	51.4267
2248.06	81.0683
2245.53	47.4384
2243	69.1573
2240.47	51.3564
2237.94	45.4151
2235.41	61.1907
2232.87	51.3036
2230.34	61.1488
2227.8	45.3529
2225.27	65.0493
2222.73	55.1744
2220.19	59.0952
2217.65	55.1366
2215.11	64.9602
2212.57	55.0988
2210.03	47.2114
2207.49	112.089
2204.95	82.5632
2202.4	55.0233
2199.86	56.9689
2197.31	60.8769
2194.76	41.225
2192.22	54.9478
2189.67	37.2732
2187.12	45.1047
2184.57	62.7329
2182.02	52.9127
2179.47	66.6079
2176.91	62.6683
2174.36	52.8582
2171.8	58.7112
2169.25	43.0401
2166.69	46.9367
2164.13	58.6507
2161.58	52.7675
2159.02	39.0736
2156.46	56.6372
2153.9	54.6654
2151.34	39.0333
2148.77	68.2847
2146.21	56.5593
2143.64	60.4392
2141.08	44.8265
2138.51	64.2942
2135.95	54.5339
2133.38	56.4621
2130.81	42.8186
2128.24	64.2057
2125.67	42.7891
2123.1	60.273
2120.53	54.4213
2117.95	60.2314
2115.38	58.2684
2112.8	38.8322
2110.23	65.992
2107.65	50.4471
2105.07	71.7654
2102.49	56.2291
2099.92	62.0246
2097.34	48.44
2094.75	54.2341
2092.17	44.534
2089.59	44.5187
2087.01	48.3732
2084.42	63.8306
2081.83	63.8085
2079.25	52.189
2076.66	59.9
2074.07	69.5373
2071.48	38.6185
2068.89	40.5354
2066.3	67.5357
2063.71	50.152
2061.12	63.6325
2058.52	50.1174
2055.93	55.8808
2053.33	59.714
2050.74	67.3958
2048.14	69.2974
2045.54	75.0462
2042.94	65.4023
2040.34	57.688
2037.74	48.0567
2035.14	53.8049
2032.54	69.1537
2029.93	63.369
2027.33	63.3471
2024.72	51.8115
2022.12	42.2021
2019.51	59.4461
2016.9	65.1763
2014.29	47.9072
2011.68	63.2156
2009.07	59.3638
2006.46	80.4005
2003.85	66.9772
2001.24	70.7799
1998.62	80.3169
1996.01	43.9678
1993.39	74.5283
1990.77	63.0406
1988.15	43.9221
1985.54	55.3609
1982.92	61.0667
1980.29	59.1378
1977.67	49.5822
1975.05	66.7222
1972.43	53.3592
1969.8	49.5306
1967.18	66.6527
1964.55	64.7259
1961.92	51.3821
1959.3	36.1452
1956.67	49.4447
1954.04	53.2297
1951.41	49.4104
1948.77	60.7916
1946.14	49.376
1943.51	60.7494
1940.87	55.035
1938.24	62.6043
1935.6	68.2718
1932.96	58.7692
1930.33	66.3292
1927.69	70.0951
1925.05	54.9203
1922.41	53.008
1919.76	54.8821
1917.12	49.1875
1914.48	51.0615
1911.83	39.7007
1909.19	52.9158
1906.54	58.565
1903.89	37.7707
1901.25	54.7485
1898.6	35.8572
1895.95	52.8238
1893.3	47.1476
1890.64	62.2132
1887.99	56.5377
1885.34	62.1698
1882.68	62.1482
1880.03	62.1265
1877.37	48.9311
1874.71	58.3206
1872.05	52.6583
1869.4	60.1599
1866.74	46.9835
1864.07	48.8458
1861.41	43.1947
1858.75	52.5665
1856.08	46.918
1853.42	67.5383
1850.75	61.8885
1848.09	41.2446
1845.42	43.1043
1842.75	44.9626
1840.08	63.6748
1837.41	54.2919
1834.74	58.0159
1832.07	67.3498
1829.39	44.8841
1826.72	44.8684
1824.04	63.5414
1821.37	57.9146
1818.69	50.4241
1816.01	54.1402
1813.33	48.5225
1810.65	46.64
1807.97	52.2185
1805.29	50.3359
1802.61	54.0456
1799.93	52.1637
1797.24	40.9714
1794.56	33.5103
1791.87	50.2479
1789.18	66.9737
1786.49	63.2308
1783.8	48.336
1781.11	91.0628
1778.42	63.1643
1775.73	53.8566
1773.04	55.6942
1770.34	44.5397
1767.65	57.5103
1764.95	55.6356
1762.26	48.2006
1759.56	51.8901
1756.86	62.9873
1754.16	50.0018
1751.46	64.7944
1748.76	64.7717
1746.05	70.2988
1743.35	68.4248
1740.65	53.6114
1737.94	46.2005
1735.24	60.9633
1732.53	60.9419
1729.82	53.5362
1727.11	62.7445
1724.4	79.3254
1721.69	60.8563
1718.98	75.5827
1716.26	55.285
1713.55	71.8452
1710.84	46.0384
1708.12	42.3405
1705.4	55.2073
1702.69	55.1878
1699.97	62.5242
1697.25	62.5022
1694.53	55.1296
1691.8	49.5992
1689.08	60.5999
1686.36	69.7571
1683.63	58.7221
1680.91	55.0326
1678.18	62.3483
1675.45	53.1607
1672.73	73.2993
1670	56.7869
1667.27	62.2605
1664.54	65.8996
1661.8	62.2166
1659.07	64.0239
1656.34	67.6586
1653.6	73.1186
1650.87	67.6108
1648.13	111.427
1645.39	82.1714
1642.65	73.0155
1639.91	76.6392
1637.17	102.15
1634.43	74.7616
1631.69	76.558
1628.94	94.7527
1626.2	114.756
1623.45	138.387
1620.71	129.237
1617.96	125.552
1615.21	150.973
1612.46	145.465
1609.71	189.037
1606.96	194.421
1604.21	268.824
1601.45	308.675
1598.7	386.615
1595.94	511.676
1593.19	680.18
1590.43	977.299
1587.67	1346.71
1584.91	1828.19
1582.15	2280.36
1579.39	2330.25
1576.63	1981.91
1573.86	1431.17
1571.1	944.132
1568.33	710.56
1565.57	518.724
1562.8	397.487
1560.03	317.877
1557.26	250.962
1554.49	258.092
1551.72	205.679
1548.95	173.142
1546.18	156.854
1543.4	142.38
1540.63	140.528
1537.85	129.672
1535.08	104.421
1532.3	100.785
1529.52	100.749
1526.74	98.9147
1523.96	97.0817
1521.18	86.2642
1518.39	109.589
1515.61	89.7948
1512.82	80.7866
1510.04	69.9902
1507.25	78.9352
1504.46	78.9072
1501.67	80.6718
1498.89	75.267
1496.09	77.0316
1493.3	68.0503
1490.51	73.3966
1487.72	62.6333
1484.92	155.633
1482.13	53.6475
1479.33	71.5046
1476.53	62.5442
1473.73	67.881
1470.93	55.3569
1468.13	42.8417
1465.33	60.6708
1462.53	55.2978
1459.72	53.4949
1456.92	49.9108
1454.11	57.0206
1451.31	55.219
1448.5	56.98
1445.69	62.2996
1442.88	60.4981
1440.07	55.1404
1437.26	44.4522
1434.44	55.101
1431.63	69.2959
1428.82	62.1665
1426	44.3888
1423.18	60.3472
1420.37	49.68
1417.55	53.2095
1414.73	54.9636
1411.91	51.3992
1409.08	67.3266
1406.26	53.1336
1403.44	47.8032
1400.61	49.5559
1397.79	61.9228
1394.96	61.9007
1392.13	51.2708
1389.3	68.9257
1386.47	63.601
1383.64	54.748
1380.81	54.7284
1377.98	65.2976
1375.14	49.3968
1372.31	61.7239
1369.47	58.176
1366.64	74.0156
1363.8	17.6165
1360.96	63.3966
1358.12	61.6135
1355.28	54.5524
1352.44	45.7373
1349.59	54.5134
1346.75	56.2517
1343.9	57.9888
1341.06	64.9944
1338.21	66.7271
1335.36	52.6604
1332.51	59.6604
1329.66	56.1309
1326.81	40.3296
1323.96	49.0793
1321.11	68.3359
1318.25	49.0441
1315.4	42.0227
1312.54	49.0089
1309.68	36.7435
1306.82	40.2284
1303.96	54.2015
1301.1	47.1908
1298.24	50.6682
1295.38	40.1707
1292.52	34.9185
1289.65	48.8683
1286.79	41.8721
1283.92	57.5534
1281.05	43.5854
1278.18	36.5986
1275.31	33.1011
1272.44	50.5046
1269.57	29.5955
1266.7	40.0266
1263.82	40.0122
1260.95	53.9101
1258.07	55.6291
1255.2	46.9201
1252.32	45.1661
1249.44	41.6768
1246.56	45.1336
1243.68	45.1173
1240.8	41.6318
1237.91	41.6168
1235.03	53.7357
1232.14	36.3885
1229.26	50.2326
1226.37	45.0199
1223.48	39.811
1220.59	41.5269
1217.7	41.5119
1214.81	65.7035
1211.92	29.3831
1209.02	46.6504
1206.13	46.6336
1203.23	34.531
1200.34	44.874
1197.44	20.7036
1194.54	39.6676
1191.64	39.6533
1188.74	44.8093
1185.84	48.2387
1182.93	30.9994
1180.03	30.9882
1177.13	55.0703
1174.22	37.8471
1171.31	46.432
1168.4	48.1343
1165.49	61.8646
1162.58	34.3568
1159.67	49.7993
1156.76	60.0809
1153.85	39.4675
1150.93	42.8839
1148.02	48.0126
1145.1	44.567
1142.18	44.5509
1139.26	44.5347
1136.34	49.6554
1133.42	35.9443
1130.5	35.9313
1127.58	59.8639
1124.65	54.7128
1121.73	46.1472
1118.8	59.7988
1115.87	54.6534
1112.95	52.9263
1110.02	47.7871
1107.09	42.6516
1104.15	51.1633
1101.22	51.1448
1098.29	34.0842
1095.35	35.7754
1092.42	22.1386
1089.48	61.2847
1086.54	59.5608
1083.6	40.8269
1080.66	35.7105
1077.72	62.8957
1074.78	27.1883
1071.84	40.7676
1068.89	56.0351
1065.95	45.8302
1063	44.1168
1060.05	33.9237
1057.11	42.3892
1054.16	44.0687
1051.2	44.0527
1048.25	57.5865
1045.3	47.4069
1042.35	55.8521
1039.39	79.518
1036.44	67.6503
1033.48	74.3882
1030.52	89.5714
1027.56	94.607
1024.6	109.772
1021.64	119.861
1018.68	145.131
1015.71	140.017
1012.75	139.966
1009.78	155.087
1006.81	168.511
1003.85	195.402
1000.88	193.647
997.907	222.192
994.936	260.812
991.964	326.316
988.991	393.454
986.016	448.778
983.041	477.178
980.064	606.332
977.086	523.841
974.107	478.334
971.127	515.07
968.146	483.016
965.164	467.751
962.181	464.229
959.197	472.436
956.212	472.263
953.225	453.676
950.238	481.959
947.249	460.036
944.259	471.573
941.268	503.162
938.277	459.532
935.284	369.161
932.289	243.791
929.294	195.295
926.298	171.864
923.301	111.754
920.302	103.376
917.303	103.339
914.302	83.3071
911.3	84.9421
908.297	101.56
905.293	108.18
902.288	98.1585
899.282	83.1547
896.275	103.074
893.266	73.1225
890.257	96.3535
887.246	97.9788
884.235	97.9429
881.222	68.0371
878.208	104.506
875.193	69.6454
872.177	94.4841
869.16	91.1355
866.141	99.384
863.122	86.1012
860.101	100.966
857.08	91.0018
854.057	90.9684
851.033	82.6682
848.008	87.5961
844.982	80.9553
841.955	72.6679
838.927	67.6884
835.897	80.8662
832.867	92.3845
829.835	85.7541
826.802	82.4256
823.768	84.0432
820.733	90.6015
817.697	95.5083
814.66	87.2427
811.622	85.5651
808.582	80.599
805.542	103.589
802.5	87.1144
799.457	77.224
796.413	83.7654
793.368	77.1671
790.322	67.2912
787.275	75.4697
784.226	78.722
781.177	72.1352
778.126	60.6368
775.074	70.4438
772.021	36.0278
768.967	60.5698
765.912	57.2746
762.856	60.5252
759.798	55.5972
756.74	71.9228
753.68	58.8242
750.619	62.0693
747.557	60.4136
744.494	50.5981
741.43	47.3163
738.365	45.6678
735.298	61.9549
732.231	60.3022
729.162	45.6172
726.092	47.229
723.021	60.2354
719.949	52.0762
716.876	52.057
713.801	55.2901
710.726	55.2697
707.649	63.3742
704.571	60.102
701.492	51.9609
698.412	69.7966
695.331	60.0353
692.249	60.0131
689.165	81.0688
686.08	79.418
682.995	63.1869
679.908	95.555
676.82	93.9006
673.73	80.9189
670.64	85.7422
667.548	90.562
664.456	92.145
661.362	80.799
658.267	96.9229
655.171	79.1244
652.074	75.8667
648.975	75.8385
645.876	77.4234
642.775	74.1699
639.673	72.5306
636.57	72.5037
633.466	67.645
630.361	86.9399
627.254	94.9546
624.147	82.049
621.038	120.615
617.928	101.279
614.817	88.3857
611.705	83.5336
608.591	91.5317
605.477	72.235
602.361	62.5804
599.244	65.7652
596.126	62.5339
593.007	60.9078
589.887	57.6807
586.765	65.6675
583.642	57.6378
580.519	78.4223
577.394	65.5942
574.268	81.5624
571.14	49.5587
568.012	71.9133
564.882	68.6916
561.751	73.4567
558.619	83.007
555.486	111.699
552.352	110.062
549.216	135.533
546.08	141.858
542.942	157.738
539.803	200.683
536.663	246.78
533.521	342.18
530.379	505.92
527.235	1003.51
524.09	3142.95
520.944	14324.7
517.797	9787.19
514.649	2159.65
511.499	914.334
508.349	464.93
505.197	337.861
502.044	247.355
498.889	207.637
495.734	204.391
492.577	121.955
489.42	136.159
486.261	145.604
483.101	131.311
479.939	107.54
476.777	115.404
473.613	105.879
470.448	83.7237
467.282	99.4834
464.115	113.653
460.946	85.2077
457.777	80.4439
454.606	78.837
451.434	86.6883
448.261	102.411
445.086	108.673
441.911	130.674
438.734	147.936
435.556	129.002
432.377	122.664
429.197	127.334
426.015	133.572
422.833	102.105
419.649	136.612
416.464	141.27
413.277	128.664
410.09	111.363
406.901	97.2099
403.711	130.087
400.52	119.071
397.328	120.593
394.134	122.113
390.94	115.807
387.744	117.328
384.547	136.049
381.349	126.619
378.149	137.51
374.948	131.21
371.747	118.669
368.543	148.281
365.339	135.743
362.134	141.931
358.927	126.286
355.719	135.59
352.51	129.307
349.3	163.52
346.088	158.788
342.875	149.392
339.661	157.113
336.446	135.284
333.23	156.995
330.012	175.582
326.794	155.323
323.574	155.265
320.352	178.487
317.13	179.972
313.906	192.311
310.681	203.091
307.455	223.161
304.228	244.765
301	274.095
297.77	258.512
294.539	196.519
291.307	216.553
288.073	188.639
284.839	197.842
281.603	190.042
278.366	174.526
275.128	177.547
271.888	171.307
268.647	168.157
265.406	185.057
262.162	158.781
258.918	151.016
255.672	149.418
252.426	164.76
249.177	150.845
245.928	158.481
242.678	133.812
239.426	167.586
236.173	162.912
232.919	164.387
229.663	129.002
226.407	147.375
223.149	125.836
219.889	121.186
216.629	131.874
213.367	110.364
210.105	107.258
206.841	105.686
203.575	111.77
200.309	108.667
197.041	110.155
193.772	128.466
190.502	97.8417
187.23	126.84
183.957	94.7123
180.683	93.1493
177.408	93.114
174.132	97.6563
170.854	117.448
167.575	112.829
164.295	102.118
161.013	94.4611
157.73	111.178
154.446	102.001
151.161	111.094
147.875	117.136
144.587	104.927
141.298	114.007
138.008	107.886
134.717	121.515
131.424	127.543
128.13	116.87
124.835	133.514
121.538	127.397
118.24	116.736
114.941	122.754
111.641	131.797
108.34	104.489
105.037	108.99
101.733	108.949
100.081	116.492